{
  "engine": "CDISC CORE (cdisc-rules-engine) v0.15 \u2014 the engine Pinnacle 21 Community 4.0 can execute",
  "standard": "sdtmig 3-4",
  "corpus": "Track B lean benchmark (pilot1 + pharmaversesdtm_recist), per-archetype injection, CORE-readable XPORT",
  "clean_real_issues": 6526,
  "archetypes_total": 20,
  "detection_criterion": "CORE detects an archetype iff a NEW CORE violation whose rule semantics ARE the injected contradiction ('direct') fires on the injected subject. 'indirect' = flagged only via a generic derived-variable rule any edit would trip. 'collateral' flags (wrong reason) and silence both = not detected.",
  "grouping": "Authoritative split from docs/frozen_archetype_list.csv core_xref: 10 'core_derived_structural' archetypes (A08-A17, each SEEDED from a CORE rule) vs 10 'noncore_crossdomain' archetypes (A01-A07/A18-A20, core_xref=none or a RECIST shape).",
  "HEADLINE": {
    "core_detects_DIRECT": "8/20",
    "core_detects_direct_plus_indirect": "9/20",
    "core_flags_subject_any_reason": "12/20",
    "noncore_crossdomain_detected": "0/10",
    "core_derived_structural_detected_direct": "8/10",
    "core_derived_structural_detected_incl_indirect": "9/10",
    "direct_under_paper_oncology_domain_filter": "8/20"
  },
  "note": "A real CORE run does NOT give 0/20. CORE detects 0/10 of the non-CORE cross-domain archetypes (the RECIST/semantic contradictions CORE structurally cannot express) but directly detects 8/10 of the archetypes the benchmark itself SEEDED from CORE rules (frozen_archetype_list.csv core_xref: ARMCD-not-in-TA, RFXSTDTC/RFXENDTC, RACE=MULTIPLE, duplicate USUBJID, ARM-not-1:1, ...). Even under the paper's oncology-domain (DM/EX/TU/TR/RS) filter CORE directly detects 8/20. The 0/10 non-CORE result is robust and supports the central thesis; the blanket 'CORE 0/20' contradicts the benchmark's own design and is not reproducible.",
  "per_archetype": [
    {
      "archetype": "A01",
      "usubjid": "01-701-1015",
      "description": "RSORRES\u2192PD at V3 despite \u226530% SLD decrease",
      "category": "noncore_crossdomain",
      "design_core_seed": null,
      "domains_modified": [],
      "core_new_issues_on_target_subject": 0,
      "core_flags_subject": false,
      "detection_confidence": "none",
      "core_detects_contradiction": false,
      "matched_core_rule": null,
      "matched_rule_in_oncology_domain": false,
      "new_issue_core_ids": [],
      "rationale": "RSORRES=PD vs >=30% SLD decrease; CORE silent"
    },
    {
      "archetype": "A02",
      "usubjid": "01-701-1015",
      "description": "New lesion T09 at V2, RSORRES=SD",
      "category": "noncore_crossdomain",
      "design_core_seed": null,
      "domains_modified": [],
      "core_new_issues_on_target_subject": 0,
      "core_flags_subject": false,
      "detection_confidence": "none",
      "core_detects_contradiction": false,
      "matched_core_rule": null,
      "matched_rule_in_oncology_domain": false,
      "new_issue_core_ids": [],
      "rationale": "new lesion vs RSORRES=SD; CORE silent"
    },
    {
      "archetype": "A03",
      "usubjid": "01-701-1015",
      "description": "EXSTDTC\u219214d after AESTDTC=2014-01-03",
      "category": "noncore_crossdomain",
      "design_core_seed": null,
      "domains_modified": [],
      "core_new_issues_on_target_subject": 3,
      "core_flags_subject": true,
      "detection_confidence": "none",
      "core_detects_contradiction": false,
      "matched_core_rule": null,
      "matched_rule_in_oncology_domain": false,
      "new_issue_core_ids": [
        "CORE-000239",
        "CORE-000552",
        "CORE-000718"
      ],
      "rationale": "exposure-after-attributed-AE; CORE flags only collateral date errors (EXSTDY miscalc, RFXSTDTC ref, EXSTDTC>EXENDTC), none of which expresses the AE-temporal contradiction"
    },
    {
      "archetype": "A04",
      "usubjid": "01-701-1015",
      "description": "TR/RS VISITNUM shifted at V2, EX unchanged",
      "category": "noncore_crossdomain",
      "design_core_seed": null,
      "domains_modified": [],
      "core_new_issues_on_target_subject": 0,
      "core_flags_subject": false,
      "detection_confidence": "none",
      "core_detects_contradiction": false,
      "matched_core_rule": null,
      "matched_rule_in_oncology_domain": false,
      "new_issue_core_ids": [],
      "rationale": "VISITNUM shift TR/RS vs EX; CORE silent"
    },
    {
      "archetype": "A05",
      "usubjid": "01-701-1015",
      "description": "SUPPDM SEX=M conflicts with DM SEX=F",
      "category": "noncore_crossdomain",
      "design_core_seed": null,
      "domains_modified": [],
      "core_new_issues_on_target_subject": 1,
      "core_flags_subject": true,
      "detection_confidence": "none",
      "core_detects_contradiction": false,
      "matched_core_rule": null,
      "matched_rule_in_oncology_domain": false,
      "new_issue_core_ids": [
        "CORE-000783"
      ],
      "rationale": "SUPPDM SEX vs DM SEX; CORE flags SUPP.QNAM naming collision (fires regardless of value agreement), not the M-vs-F conflict"
    },
    {
      "archetype": "A06",
      "usubjid": "01-701-1034",
      "description": "Non-target PD at V2 but RSORRES=SD",
      "category": "noncore_crossdomain",
      "design_core_seed": null,
      "domains_modified": [],
      "core_new_issues_on_target_subject": 0,
      "core_flags_subject": false,
      "detection_confidence": "none",
      "core_detects_contradiction": false,
      "matched_core_rule": null,
      "matched_rule_in_oncology_domain": false,
      "new_issue_core_ids": [],
      "rationale": "non-target PD vs RSORRES=SD; CORE silent"
    },
    {
      "archetype": "A07",
      "usubjid": "01-701-1015",
      "description": "PR at V2, no confirmation within 28d",
      "category": "noncore_crossdomain",
      "design_core_seed": null,
      "domains_modified": [],
      "core_new_issues_on_target_subject": 0,
      "core_flags_subject": false,
      "detection_confidence": "none",
      "core_detects_contradiction": false,
      "matched_core_rule": null,
      "matched_rule_in_oncology_domain": false,
      "new_issue_core_ids": [],
      "rationale": "PR without 28d confirmation; CORE silent"
    },
    {
      "archetype": "A08",
      "usubjid": "01-701-1015",
      "description": "ARMCD\u2192TRTARMX (not in TA)",
      "category": "core_derived_structural",
      "design_core_seed": "CORE-000210",
      "domains_modified": [],
      "core_new_issues_on_target_subject": 3,
      "core_flags_subject": true,
      "detection_confidence": "direct",
      "core_detects_contradiction": true,
      "matched_core_rule": "CORE-000210",
      "matched_rule_in_oncology_domain": true,
      "new_issue_core_ids": [
        "CORE-000210",
        "CORE-000318",
        "CORE-000655"
      ],
      "rationale": "ARMCD not in TA.ARMCD \u2014 rule semantics ARE the contradiction; a valid ARMCD would not fire"
    },
    {
      "archetype": "A09",
      "usubjid": "01-701-1015",
      "description": "DS records removed for subject with ACTARMCD",
      "category": "core_derived_structural",
      "design_core_seed": "CORE-000296",
      "domains_modified": [],
      "core_new_issues_on_target_subject": 1,
      "core_flags_subject": true,
      "detection_confidence": "direct",
      "core_detects_contradiction": true,
      "matched_core_rule": "CORE-000296",
      "matched_rule_in_oncology_domain": true,
      "new_issue_core_ids": [
        "CORE-000296"
      ],
      "rationale": "no DS records for a treated subject \u2014 rule semantics ARE the contradiction"
    },
    {
      "archetype": "A10",
      "usubjid": "01-701-1015",
      "description": "RFXSTDTC shifted -7d from min EXSTDTC",
      "category": "core_derived_structural",
      "design_core_seed": "CORE-000239",
      "domains_modified": [],
      "core_new_issues_on_target_subject": 1,
      "core_flags_subject": true,
      "detection_confidence": "direct",
      "core_detects_contradiction": true,
      "matched_core_rule": "CORE-000239",
      "matched_rule_in_oncology_domain": true,
      "new_issue_core_ids": [
        "CORE-000239"
      ],
      "rationale": "RFXSTDTC != earliest EXSTDTC \u2014 rule semantics ARE the contradiction"
    },
    {
      "archetype": "A11",
      "usubjid": "01-701-1015",
      "description": "RFXENDTC shifted +7d from max EXENDTC",
      "category": "core_derived_structural",
      "design_core_seed": "CORE-000238",
      "domains_modified": [],
      "core_new_issues_on_target_subject": 1,
      "core_flags_subject": true,
      "detection_confidence": "direct",
      "core_detects_contradiction": true,
      "matched_core_rule": "CORE-000238",
      "matched_rule_in_oncology_domain": true,
      "new_issue_core_ids": [
        "CORE-000238"
      ],
      "rationale": "RFXENDTC != latest EX date \u2014 rule semantics ARE the contradiction"
    },
    {
      "archetype": "A12",
      "usubjid": "01-701-1015",
      "description": "DTHFL=Y without DD records",
      "category": "core_derived_structural",
      "design_core_seed": "CORE-000108",
      "domains_modified": [],
      "core_new_issues_on_target_subject": 2,
      "core_flags_subject": true,
      "detection_confidence": "direct",
      "core_detects_contradiction": true,
      "matched_core_rule": "CORE-000705",
      "matched_rule_in_oncology_domain": true,
      "new_issue_core_ids": [
        "CORE-000705",
        "CORE-001078"
      ],
      "rationale": "DTHFL=Y but DTHDTC missing \u2014 death-flag consistency rule; fires on the injected inconsistency, not a benign edit"
    },
    {
      "archetype": "A13",
      "usubjid": "01-701-1015",
      "description": "RACE=MULTIPLE w/o SUPPDM records",
      "category": "core_derived_structural",
      "design_core_seed": "CORE-000846",
      "domains_modified": [],
      "core_new_issues_on_target_subject": 1,
      "core_flags_subject": true,
      "detection_confidence": "direct",
      "core_detects_contradiction": true,
      "matched_core_rule": "CORE-000846",
      "matched_rule_in_oncology_domain": true,
      "new_issue_core_ids": [
        "CORE-000846"
      ],
      "rationale": "RACE=MULTIPLE w/o SUPPDM \u2014 rule semantics ARE the contradiction"
    },
    {
      "archetype": "A14",
      "usubjid": "01-701-1015",
      "description": "EX records removed for subject with ACTARMCD",
      "category": "core_derived_structural",
      "design_core_seed": "CORE-000366",
      "domains_modified": [],
      "core_new_issues_on_target_subject": 0,
      "core_flags_subject": false,
      "detection_confidence": "none",
      "core_detects_contradiction": false,
      "matched_core_rule": null,
      "matched_rule_in_oncology_domain": false,
      "new_issue_core_ids": [],
      "rationale": "EX removed for treated subject; CORE raised no new flag on subject"
    },
    {
      "archetype": "A15",
      "usubjid": "01-701-1015",
      "description": "RFSTDTC shifted -5d from first EXSTDTC",
      "category": "core_derived_structural",
      "design_core_seed": "CORE-001044",
      "domains_modified": [],
      "core_new_issues_on_target_subject": 13,
      "core_flags_subject": true,
      "detection_confidence": "indirect",
      "core_detects_contradiction": false,
      "matched_core_rule": "CORE-000529",
      "matched_rule_in_oncology_domain": true,
      "new_issue_core_ids": [
        "CORE-000529",
        "CORE-000552",
        "CORE-000553"
      ],
      "rationale": "RFSTDTC shift surfaced only via DMDY/EXSTDY/AEENDY study-day miscalc \u2014 a generic derived-variable rule that ANY date edit would trip; specificity to the contradiction not shown"
    },
    {
      "archetype": "A16",
      "usubjid": "01-701-1015",
      "description": "DM row dup'd with STUDYID=DUPLICATE_STUDY",
      "category": "core_derived_structural",
      "design_core_seed": "CORE-000351",
      "domains_modified": [],
      "core_new_issues_on_target_subject": 3,
      "core_flags_subject": true,
      "detection_confidence": "direct",
      "core_detects_contradiction": true,
      "matched_core_rule": "CORE-000351",
      "matched_rule_in_oncology_domain": true,
      "new_issue_core_ids": [
        "CORE-000351",
        "CORE-000529"
      ],
      "rationale": "duplicated DM row -> USUBJID not unique \u2014 rule semantics ARE the contradiction"
    },
    {
      "archetype": "A17",
      "usubjid": "01-701-1015",
      "description": "ARM changed for ARMCD=Pbo \u2192 not 1:1",
      "category": "core_derived_structural",
      "design_core_seed": "CORE-000318",
      "domains_modified": [],
      "core_new_issues_on_target_subject": 1,
      "core_flags_subject": true,
      "detection_confidence": "direct",
      "core_detects_contradiction": true,
      "matched_core_rule": "CORE-000318",
      "matched_rule_in_oncology_domain": true,
      "new_issue_core_ids": [
        "CORE-000318"
      ],
      "rationale": "ARMCD-ARM not 1:1 \u2014 rule semantics ARE the contradiction"
    },
    {
      "archetype": "A18",
      "usubjid": "01-701-1034",
      "description": "Non-target PD at V2 but RS=SD",
      "category": "noncore_crossdomain",
      "design_core_seed": null,
      "domains_modified": [],
      "core_new_issues_on_target_subject": 0,
      "core_flags_subject": false,
      "detection_confidence": "none",
      "core_detects_contradiction": false,
      "matched_core_rule": null,
      "matched_rule_in_oncology_domain": false,
      "new_issue_core_ids": [],
      "rationale": "non-target PD vs RS=SD; CORE silent"
    },
    {
      "archetype": "A19",
      "usubjid": "01-701-1015",
      "description": "RSORRES=CR at V2 while target shows PR",
      "category": "noncore_crossdomain",
      "design_core_seed": null,
      "domains_modified": [],
      "core_new_issues_on_target_subject": 0,
      "core_flags_subject": false,
      "detection_confidence": "none",
      "core_detects_contradiction": false,
      "matched_core_rule": null,
      "matched_rule_in_oncology_domain": false,
      "new_issue_core_ids": [],
      "rationale": "RSORRES=CR vs target PR (Table 7); CORE silent"
    },
    {
      "archetype": "A20",
      "usubjid": "01-701-1015",
      "description": "iCPD at V5, no \u22654wk confirmation",
      "category": "noncore_crossdomain",
      "design_core_seed": null,
      "domains_modified": [],
      "core_new_issues_on_target_subject": 2,
      "core_flags_subject": true,
      "detection_confidence": "none",
      "core_detects_contradiction": false,
      "matched_core_rule": null,
      "matched_rule_in_oncology_domain": false,
      "new_issue_core_ids": [
        "CORE-000544"
      ],
      "rationale": "iCPD without confirmation; CORE flags only incidental RSSEQ uniqueness, not the iRECIST temporal contradiction"
    }
  ]
}